# New G.A.S. format
# filter of VIMOS_V
# download from  "Filter Profile Service" (http://svo2.cab.inta-csic.es/theory/fps)
# After the "START" signal, the file is bild as follow:
# Filter name
# nwave: number of wavelenght
# center wavelenght [micron]
# and for l=1 to nwave, lambda [micron] | transmission [without unit]
START
VIMOS_V
222
0.54490
0.47973   0.0010660
0.48025   0.0015140
0.48078   0.0018240
0.48131   0.0019190
0.48184   0.0014530
0.48236   0.0010660
0.48605   0.0013250
0.48658   0.0018530
0.48711   0.0026680
0.48763   0.0035930
0.48816   0.0051330
0.48869   0.0067550
0.48922   0.0087580
0.48974   0.0110060
0.49027   0.0140990
0.49080   0.0178780
0.49132   0.0243690
0.49185   0.0277310
0.49238   0.0319380
0.49291   0.0375510
0.49343   0.0424380
0.49396   0.0480760
0.49449   0.0543020
0.49501   0.0609940
0.49554   0.0680640
0.49607   0.0753710
0.49660   0.0828310
0.49712   0.0903810
0.49765   0.0979550
0.49818   0.1055130
0.49871   0.1129820
0.49923   0.1203860
0.49976   0.1276500
0.50029   0.1345450
0.50081   0.1414470
0.50134   0.1481480
0.50187   0.1545740
0.50240   0.1607890
0.50292   0.1667600
0.50345   0.1724980
0.50398   0.1780060
0.50450   0.1832950
0.50503   0.1883450
0.50556   0.1931740
0.50609   0.1977980
0.50661   0.2022010
0.50714   0.2064030
0.50767   0.2104080
0.50819   0.2141490
0.50872   0.2178720
0.50925   0.2213370
0.50978   0.2245580
0.51030   0.2277910
0.51083   0.2306890
0.51136   0.2336300
0.51189   0.2362570
0.51241   0.2389310
0.51294   0.2412890
0.51347   0.2435360
0.51399   0.2458540
0.51452   0.2479680
0.51505   0.2498780
0.51558   0.2517830
0.51610   0.2535920
0.51663   0.2553140
0.51716   0.2568340
0.51769   0.2583710
0.51821   0.2598320
0.51874   0.2612070
0.51927   0.2624960
0.51979   0.2636190
0.52032   0.2647630
0.52085   0.2659440
0.52138   0.2667410
0.52190   0.2677890
0.52243   0.2685600
0.52296   0.2693820
0.52348   0.2701340
0.52401   0.2707360
0.52454   0.2713830
0.52507   0.2719810
0.52559   0.2724210
0.52612   0.2730350
0.52665   0.2733860
0.52717   0.2736990
0.52770   0.2740840
0.52823   0.2743310
0.52876   0.2747630
0.52928   0.2749390
0.52981   0.2752160
0.53034   0.2755750
0.53087   0.2762650
0.53139   0.2767160
0.53192   0.2771470
0.53245   0.2776800
0.53297   0.2780730
0.53350   0.2786820
0.53403   0.2790550
0.53456   0.2794030
0.53508   0.2798630
0.53561   0.2803020
0.53614   0.2806230
0.53666   0.2810320
0.53719   0.2813200
0.53772   0.2817190
0.53824   0.2820930
0.53877   0.2822370
0.53930   0.2827110
0.53983   0.2830660
0.54035   0.2831610
0.54088   0.2836030
0.54141   0.2839240
0.54194   0.2839840
0.54246   0.2842810
0.54299   0.2846760
0.54352   0.2845870
0.54405   0.2849560
0.54457   0.2852010
0.54510   0.2853050
0.54563   0.2855040
0.54615   0.2857040
0.54668   0.2857590
0.54721   0.2857970
0.54774   0.2859340
0.54826   0.2860620
0.54879   0.2860360
0.54932   0.2860010
0.54984   0.2861800
0.55037   0.2862300
0.55090   0.2866070
0.55143   0.2869660
0.55195   0.2872850
0.55248   0.2874530
0.55301   0.2875850
0.55353   0.2878110
0.55406   0.2879830
0.55459   0.2881210
0.55512   0.2881030
0.55564   0.2880260
0.55617   0.2880440
0.55670   0.2880080
0.55723   0.2879370
0.55775   0.2876850
0.55828   0.2874030
0.55881   0.2873200
0.55933   0.2868280
0.55986   0.2866680
0.56039   0.2861090
0.56091   0.2857530
0.56144   0.2853820
0.56197   0.2849780
0.56250   0.2844350
0.56302   0.2839970
0.56355   0.2834310
0.56408   0.2829770
0.56461   0.2824040
0.56513   0.2820790
0.56566   0.2815270
0.56619   0.2811020
0.56671   0.2804660
0.56724   0.2802180
0.56777   0.2797660
0.56830   0.2794610
0.56882   0.2792080
0.56935   0.2789930
0.56988   0.2788190
0.57041   0.2784600
0.57093   0.2785100
0.57146   0.2783710
0.57199   0.2783870
0.57251   0.2784570
0.57304   0.2785190
0.57357   0.2780440
0.57410   0.2777240
0.57462   0.2774350
0.57515   0.2770580
0.57568   0.2768170
0.57620   0.2765970
0.57673   0.2763690
0.57726   0.2761120
0.57779   0.2756900
0.57831   0.2754260
0.57884   0.2747980
0.57937   0.2739940
0.57990   0.2732210
0.58042   0.2719300
0.58095   0.2705370
0.58148   0.2684840
0.58200   0.2660650
0.58253   0.2631860
0.58306   0.2594680
0.58359   0.2543190
0.58411   0.2486670
0.58464   0.2419540
0.58517   0.2342050
0.58569   0.2253060
0.58622   0.2152480
0.58675   0.2036250
0.58727   0.1906940
0.58780   0.1759700
0.58833   0.1595240
0.58886   0.1413460
0.58938   0.1211380
0.58991   0.0987360
0.59044   0.0777030
0.59097   0.0634600
0.59149   0.0488280
0.59202   0.0338540
0.59255   0.0216550
0.59308   0.0153520
0.59360   0.0120010
0.59413   0.0096530
0.59466   0.0076310
0.59518   0.0060580
0.59571   0.0047560
0.59624   0.0038400
0.59676   0.0030880
0.59729   0.0024270
0.59782   0.0019670
0.59835   0.0016730
0.59887   0.0013610
0.59940   0.0011150
