# New G.A.S. format
# filter of VIMOS_B
# download from  "Filter Profile Service" (http://svo2.cab.inta-csic.es/theory/fps)
# After the "START" signal, the file is bild as follow:
# Filter name
# nwave: number of wavelenght
# center wavelenght [micron]
# and for l=1 to nwave, lambda [micron] | transmission [without unit]
START
VIMOS_B
229
0.42859
0.36585   0.0012770
0.36638   0.0017440
0.36690   0.0026130
0.36743   0.0038560
0.36796   0.0073710
0.36849   0.0086120
0.36901   0.0099340
0.36954   0.0111960
0.37007   0.0125440
0.37060   0.0139470
0.37112   0.0157160
0.37165   0.0174950
0.37218   0.0205410
0.37270   0.0234880
0.37323   0.0262210
0.37376   0.0293410
0.37429   0.0328320
0.37481   0.0367830
0.37534   0.0417980
0.37587   0.0486830
0.37639   0.0554530
0.37692   0.0639310
0.37745   0.0749000
0.37798   0.0848210
0.37850   0.0949960
0.37903   0.1067110
0.37956   0.1171900
0.38008   0.1266390
0.38061   0.1350550
0.38114   0.1424680
0.38167   0.1492230
0.38219   0.1551800
0.38272   0.1603510
0.38325   0.1650890
0.38378   0.1692190
0.38430   0.1728570
0.38483   0.1759990
0.38536   0.1788020
0.38588   0.1812560
0.38641   0.1833980
0.38694   0.1852730
0.38747   0.1868990
0.38799   0.1883140
0.38852   0.1896140
0.38905   0.1905550
0.38957   0.1914890
0.39010   0.1923750
0.39063   0.1929620
0.39116   0.1935970
0.39168   0.1942320
0.39221   0.1947440
0.39274   0.1950780
0.39326   0.1955780
0.39379   0.1959850
0.39432   0.1963720
0.39485   0.1966130
0.39537   0.1970490
0.39590   0.1974130
0.39643   0.1977790
0.39696   0.1980830
0.39748   0.1985270
0.39801   0.1989100
0.39854   0.1993690
0.39906   0.1996360
0.39959   0.2000470
0.40012   0.2005360
0.40065   0.2013050
0.40117   0.2022210
0.40170   0.2030120
0.40223   0.2038110
0.40275   0.2048240
0.40328   0.2056370
0.40381   0.2064550
0.40434   0.2074170
0.40486   0.2082410
0.40539   0.2090660
0.40592   0.2100320
0.40645   0.2108550
0.40697   0.2116730
0.40750   0.2124870
0.40803   0.2135110
0.40855   0.2143110
0.40908   0.2151040
0.40961   0.2160310
0.41014   0.2168040
0.41066   0.2175640
0.41119   0.2184580
0.41172   0.2191940
0.41224   0.2199150
0.41277   0.2208450
0.41330   0.2215370
0.41382   0.2222150
0.41435   0.2230260
0.41488   0.2236730
0.41541   0.2243040
0.41593   0.2250720
0.41646   0.2256720
0.41699   0.2262580
0.41752   0.2270590
0.41804   0.2276150
0.41857   0.2281570
0.41910   0.2286850
0.41962   0.2293540
0.42015   0.2298570
0.42068   0.2303470
0.42121   0.2309820
0.42173   0.2314490
0.42226   0.2319070
0.42279   0.2325930
0.42332   0.2330320
0.42384   0.2334630
0.42437   0.2340460
0.42490   0.2344630
0.42542   0.2348740
0.42595   0.2354390
0.42648   0.2358410
0.42701   0.2362370
0.42753   0.2368730
0.42806   0.2372640
0.42859   0.2376520
0.42911   0.2380380
0.42964   0.2385850
0.43017   0.2389690
0.43070   0.2393520
0.43122   0.2398980
0.43175   0.2402820
0.43228   0.2406650
0.43281   0.2412970
0.43333   0.2416820
0.43386   0.2420690
0.43439   0.2426210
0.43491   0.2430100
0.43544   0.2434000
0.43597   0.2439580
0.43649   0.2443500
0.43702   0.2447440
0.43755   0.2453920
0.43808   0.2457880
0.43860   0.2461850
0.43913   0.2465830
0.43966   0.2471510
0.44019   0.2475500
0.44071   0.2479490
0.44124   0.2485190
0.44177   0.2489180
0.44229   0.2493160
0.44282   0.2499720
0.44335   0.2503690
0.44388   0.2507640
0.44440   0.2513310
0.44493   0.2517230
0.44546   0.2521130
0.44599   0.2526750
0.44651   0.2530590
0.44704   0.2534390
0.44757   0.2540810
0.44809   0.2544540
0.44862   0.2548220
0.44915   0.2551850
0.44968   0.2557190
0.45020   0.2560700
0.45073   0.2567690
0.45126   0.2574610
0.45178   0.2577870
0.45231   0.2584620
0.45284   0.2588530
0.45337   0.2595060
0.45389   0.2600590
0.45442   0.2604070
0.45495   0.2610140
0.45547   0.2616010
0.45600   0.2618000
0.45653   0.2623390
0.45706   0.2625680
0.45758   0.2630440
0.45811   0.2633950
0.45864   0.2635090
0.45917   0.2638570
0.45969   0.2641510
0.46022   0.2640110
0.46075   0.2641740
0.46127   0.2642600
0.46180   0.2639740
0.46233   0.2637880
0.46286   0.2632940
0.46338   0.2629660
0.46391   0.2624140
0.46444   0.2615130
0.46496   0.2607300
0.46549   0.2597610
0.46602   0.2582180
0.46655   0.2568150
0.46707   0.2548790
0.46760   0.2529480
0.46813   0.2506320
0.46866   0.2477820
0.46918   0.2448410
0.46971   0.2414950
0.47024   0.2373650
0.47076   0.2330940
0.47129   0.2282920
0.47182   0.2226560
0.47234   0.2165870
0.47287   0.2096530
0.47340   0.2022220
0.47393   0.1939280
0.47445   0.1845920
0.47498   0.1745310
0.47551   0.1634380
0.47604   0.1510100
0.47656   0.1376140
0.47709   0.1229170
0.47762   0.1094780
0.47814   0.0974890
0.47867   0.0832570
0.47920   0.0679560
0.47973   0.0531190
0.48025   0.0399710
0.48078   0.0314090
0.48131   0.0229150
0.48184   0.0142500
0.48236   0.0096960
0.48289   0.0069750
0.48342   0.0050540
0.48394   0.0037130
0.48447   0.0027680
0.48500   0.0019250
0.48552   0.0014480
0.48605   0.0010740
