# New G.A.S. format
# filter of VIMOS_I
# download from  "Filter Profile Service" (http://svo2.cab.inta-csic.es/theory/fps)
# After the "START" signal, the file is bild as follow:
# Filter name
# nwave: number of wavelenght
# center wavelenght [micron]
# and for l=1 to nwave, lambda [micron] | transmission [without unit]
START
VIMOS_I
319
0.81521
0.71121   0.0010600
0.71192   0.0014750
0.71263   0.0019500
0.71335   0.0024710
0.71406   0.0033090
0.71477   0.0043290
0.71548   0.0055070
0.71619   0.0070310
0.71690   0.0087790
0.71761   0.0110530
0.71832   0.0137510
0.71904   0.0166040
0.71975   0.0197240
0.72046   0.0234720
0.72117   0.0261930
0.72188   0.0315760
0.72259   0.0380760
0.72330   0.0445390
0.72401   0.0509660
0.72472   0.0578000
0.72544   0.0643530
0.72615   0.0705490
0.72686   0.0764680
0.72757   0.0820680
0.72828   0.0874210
0.72899   0.0925030
0.72970   0.0972670
0.73041   0.1018810
0.73112   0.1061890
0.73184   0.1103080
0.73255   0.1142030
0.73326   0.1178520
0.73397   0.1213450
0.73468   0.1246380
0.73539   0.1277100
0.73610   0.1306400
0.73681   0.1334040
0.73752   0.1361990
0.73824   0.1390080
0.73895   0.1415740
0.73966   0.1440040
0.74037   0.1463890
0.74108   0.1485500
0.74179   0.1506360
0.74250   0.1526020
0.74321   0.1544530
0.74393   0.1561500
0.74464   0.1577900
0.74535   0.1593330
0.74606   0.1607330
0.74677   0.1620910
0.74748   0.1633660
0.74819   0.1645120
0.74890   0.1656290
0.74961   0.1667250
0.75033   0.1675920
0.75104   0.1685580
0.75175   0.1693470
0.75246   0.1701390
0.75317   0.1708670
0.75388   0.1715450
0.75459   0.1721160
0.75530   0.1726940
0.75601   0.1732250
0.75673   0.1737790
0.75744   0.1741140
0.75815   0.1745830
0.75886   0.1748980
0.75957   0.1752480
0.76028   0.1754950
0.76099   0.1758330
0.76170   0.1760310
0.76241   0.1762540
0.76313   0.1758810
0.76384   0.1754020
0.76455   0.1748480
0.76526   0.1743300
0.76597   0.1737840
0.76668   0.1732300
0.76739   0.1725950
0.76810   0.1720560
0.76882   0.1713890
0.76953   0.1707710
0.77024   0.1700770
0.77095   0.1694880
0.77166   0.1687750
0.77237   0.1681040
0.77308   0.1674260
0.77379   0.1667350
0.77451   0.1660420
0.77522   0.1652790
0.77593   0.1646250
0.77664   0.1638490
0.77735   0.1631280
0.77806   0.1624060
0.77877   0.1616700
0.77948   0.1608800
0.78019   0.1601410
0.78091   0.1594500
0.78162   0.1587070
0.78233   0.1579020
0.78304   0.1571540
0.78375   0.1563950
0.78446   0.1555920
0.78517   0.1548910
0.78588   0.1540750
0.78659   0.1533710
0.78731   0.1525610
0.78802   0.1518110
0.78873   0.1514410
0.78944   0.1509150
0.79015   0.1505400
0.79086   0.1501190
0.79157   0.1496960
0.79228   0.1492840
0.79299   0.1488110
0.79371   0.1484440
0.79442   0.1479780
0.79513   0.1475590
0.79584   0.1471990
0.79655   0.1467850
0.79726   0.1463200
0.79797   0.1459130
0.79868   0.1455530
0.79939   0.1450470
0.80011   0.1446880
0.80082   0.1443360
0.80153   0.1438280
0.80224   0.1434780
0.80295   0.1431280
0.80366   0.1427240
0.80437   0.1422770
0.80508   0.1418790
0.80580   0.1415330
0.80651   0.1410890
0.80722   0.1406940
0.80793   0.1403490
0.80864   0.1399070
0.80935   0.1395150
0.81006   0.1391720
0.81077   0.1387830
0.81148   0.1383400
0.81220   0.1379970
0.81291   0.1375610
0.81362   0.1372240
0.81433   0.1368300
0.81504   0.1363950
0.81575   0.1360580
0.81646   0.1357150
0.81717   0.1352280
0.81789   0.1348900
0.81860   0.1345460
0.81931   0.1341150
0.82002   0.1337180
0.82073   0.1333780
0.82144   0.1329880
0.82215   0.1325980
0.82286   0.1321990
0.82357   0.1318110
0.82429   0.1314180
0.82500   0.1310670
0.82571   0.1306260
0.82642   0.1302290
0.82713   0.1298740
0.82784   0.1294800
0.82855   0.1290800
0.82926   0.1286750
0.82997   0.1282720
0.83069   0.1279140
0.83140   0.1275080
0.83211   0.1270540
0.83282   0.1266920
0.83353   0.1262800
0.83424   0.1258670
0.83495   0.1254990
0.83566   0.1250380
0.83638   0.1246190
0.83709   0.1242450
0.83780   0.1238280
0.83851   0.1234050
0.83922   0.1229760
0.83993   0.1225530
0.84064   0.1221700
0.84135   0.1217390
0.84206   0.1213110
0.84278   0.1208730
0.84349   0.1204410
0.84420   0.1200040
0.84491   0.1196090
0.84562   0.1191720
0.84633   0.1187300
0.84704   0.1182820
0.84775   0.1178410
0.84846   0.1174380
0.84918   0.1169510
0.84989   0.1165460
0.85060   0.1160920
0.85131   0.1156440
0.85202   0.1151930
0.85273   0.1147830
0.85344   0.1143340
0.85415   0.1138760
0.85486   0.1133830
0.85558   0.1129710
0.85629   0.1125590
0.85700   0.1121080
0.85771   0.1116530
0.85842   0.1111960
0.85913   0.1107460
0.85984   0.1103350
0.86055   0.1098440
0.86127   0.1094350
0.86198   0.1090260
0.86269   0.1085360
0.86340   0.1080890
0.86411   0.1076850
0.86482   0.1072450
0.86553   0.1068450
0.86624   0.1063240
0.86695   0.1059280
0.86767   0.1055310
0.86838   0.1051030
0.86909   0.1046750
0.86980   0.1042470
0.87051   0.1038290
0.87122   0.1034070
0.87193   0.1029970
0.87264   0.1026270
0.87335   0.1022610
0.87407   0.1017750
0.87478   0.1014180
0.87549   0.1010650
0.87620   0.1006750
0.87691   0.1002920
0.87762   0.0998700
0.87833   0.0995350
0.87904   0.0992050
0.87975   0.0988000
0.88047   0.0984800
0.88118   0.0980830
0.88189   0.0977680
0.88260   0.0974220
0.88331   0.0970810
0.88402   0.0967830
0.88473   0.0964450
0.88544   0.0960770
0.88615   0.0957870
0.88687   0.0954680
0.88758   0.0951460
0.88829   0.0948250
0.88900   0.0945100
0.88971   0.0942330
0.89042   0.0939180
0.89113   0.0935660
0.89185   0.0932900
0.89256   0.0929760
0.89327   0.0926570
0.89398   0.0923740
0.89469   0.0920120
0.89540   0.0916810
0.89611   0.0913780
0.89682   0.0910360
0.89753   0.0906810
0.89825   0.0902770
0.89896   0.0899380
0.89967   0.0895800
0.90038   0.0891000
0.90109   0.0887090
0.90180   0.0883000
0.90251   0.0877930
0.90322   0.0873010
0.90393   0.0867790
0.90465   0.0862610
0.90536   0.0856730
0.90607   0.0850190
0.90678   0.0843910
0.90749   0.0836840
0.90820   0.0829320
0.90891   0.0821290
0.90962   0.0812690
0.91033   0.0803530
0.91105   0.0793720
0.91176   0.0782900
0.91247   0.0771960
0.91318   0.0760260
0.91389   0.0746760
0.91460   0.0733310
0.91531   0.0718840
0.91602   0.0702480
0.91674   0.0685910
0.91745   0.0668130
0.91816   0.0648300
0.91887   0.0627950
0.91958   0.0605980
0.92029   0.0582440
0.92100   0.0557370
0.92171   0.0530650
0.92242   0.0502090
0.92314   0.0471700
0.92385   0.0439380
0.92456   0.0381190
0.92527   0.0346140
0.92598   0.0313940
0.92669   0.0240520
0.92740   0.0207540
0.92811   0.0163360
0.92882   0.0135480
0.92954   0.0084020
0.93025   0.0060770
0.93096   0.0046250
0.93167   0.0040380
0.93238   0.0031310
0.93309   0.0027280
0.93380   0.0027220
0.93451   0.0024460
0.93523   0.0020930
0.93594   0.0017470
0.93665   0.0012950
0.93736   0.0010060
