# New G.A.S. format
# filter of VIMOS_z
# download from  "Filter Profile Service" (http://svo2.cab.inta-csic.es/theory/fps)
# After the "START" signal, the file is bild as follow:
# Filter name
# nwave: number of wavelenght
# center wavelenght [micron]
# and for l=1 to nwave, lambda [micron] | transmission [without unit]
START
VIMOS_z
280
0.89950
0.81148   0.0010600
0.81220   0.0012470
0.81291   0.0014350
0.81362   0.0016250
0.81433   0.0019150
0.81504   0.0019520
0.81575   0.0022480
0.81646   0.0023740
0.81717   0.0026780
0.81789   0.0031710
0.81860   0.0036080
0.81931   0.0043110
0.82002   0.0046160
0.82073   0.0048700
0.82144   0.0052080
0.82215   0.0061100
0.82286   0.0071150
0.82357   0.0081790
0.82429   0.0092610
0.82500   0.0099390
0.82571   0.0104610
0.82642   0.0114570
0.82713   0.0125160
0.82784   0.0140980
0.82855   0.0161360
0.82926   0.0182580
0.82997   0.0199980
0.83069   0.0214800
0.83140   0.0230310
0.83211   0.0240940
0.83282   0.0258050
0.83353   0.0284020
0.83424   0.0314390
0.83495   0.0344140
0.83566   0.0372540
0.83638   0.0390810
0.83709   0.0406970
0.83780   0.0424080
0.83851   0.0448540
0.83922   0.0466890
0.83993   0.0486470
0.84064   0.0518680
0.84135   0.0563640
0.84206   0.0597910
0.84278   0.0625980
0.84349   0.0625540
0.84420   0.0619930
0.84491   0.0626280
0.84562   0.0659530
0.84633   0.0709020
0.84704   0.0763120
0.84775   0.0789310
0.84846   0.0791050
0.84918   0.0784240
0.84989   0.0773030
0.85060   0.0769510
0.85131   0.0773420
0.85202   0.0821110
0.85273   0.0869560
0.85344   0.0927960
0.85415   0.0931680
0.85486   0.0892660
0.85558   0.0868450
0.85629   0.0867200
0.85700   0.0870010
0.85771   0.0892880
0.85842   0.0945260
0.85913   0.0987550
0.85984   0.1040450
0.86055   0.1065840
0.86127   0.1049720
0.86198   0.1010130
0.86269   0.0960110
0.86340   0.0924670
0.86411   0.0915950
0.86482   0.0944210
0.86553   0.0983560
0.86624   0.1036870
0.86695   0.1087280
0.86767   0.1103290
0.86838   0.1072280
0.86909   0.1004380
0.86980   0.0946580
0.87051   0.0933900
0.87122   0.0952050
0.87193   0.0972250
0.87264   0.1026930
0.87335   0.1077720
0.87407   0.1094580
0.87478   0.1072450
0.87549   0.0995990
0.87620   0.0934840
0.87691   0.0902440
0.87762   0.0936040
0.87833   0.0997850
0.87904   0.1062600
0.87975   0.1101960
0.88047   0.1100660
0.88118   0.1060690
0.88189   0.1003650
0.88260   0.0950260
0.88331   0.0936050
0.88402   0.0950700
0.88473   0.0999110
0.88544   0.1026600
0.88615   0.1028740
0.88687   0.0996570
0.88758   0.0980140
0.88829   0.0966480
0.88900   0.0969820
0.88971   0.0987000
0.89042   0.1010890
0.89113   0.1030490
0.89185   0.1038100
0.89256   0.0998890
0.89327   0.0934700
0.89398   0.0878720
0.89469   0.0857180
0.89540   0.0869170
0.89611   0.0916890
0.89682   0.0969680
0.89753   0.1013260
0.89825   0.1011400
0.89896   0.0980970
0.89967   0.0934510
0.90038   0.0875500
0.90109   0.0834540
0.90180   0.0845430
0.90251   0.0887060
0.90322   0.0919180
0.90393   0.0928650
0.90465   0.0930040
0.90536   0.0916900
0.90607   0.0891730
0.90678   0.0869750
0.90749   0.0840750
0.90820   0.0849150
0.90891   0.0869070
0.90962   0.0883750
0.91033   0.0872280
0.91105   0.0860290
0.91176   0.0847690
0.91247   0.0837630
0.91318   0.0831120
0.91389   0.0818000
0.91460   0.0824400
0.91531   0.0834630
0.91602   0.0849060
0.91674   0.0851970
0.91745   0.0845260
0.91816   0.0847910
0.91887   0.0806520
0.91958   0.0766060
0.92029   0.0733500
0.92100   0.0725030
0.92171   0.0740350
0.92242   0.0779200
0.92314   0.0801740
0.92385   0.0810770
0.92456   0.0791330
0.92527   0.0760870
0.92598   0.0721940
0.92669   0.0704200
0.92740   0.0710650
0.92811   0.0741590
0.92882   0.0762370
0.92954   0.0760390
0.93025   0.0746000
0.93096   0.0715610
0.93167   0.0669690
0.93238   0.0626600
0.93309   0.0602900
0.93380   0.0627580
0.93451   0.0670070
0.93523   0.0699800
0.93594   0.0704680
0.93665   0.0715620
0.93736   0.0725900
0.93807   0.0718730
0.93878   0.0673650
0.93949   0.0618200
0.94020   0.0577250
0.94091   0.0576850
0.94163   0.0591500
0.94234   0.0613190
0.94305   0.0641260
0.94376   0.0655850
0.94447   0.0645270
0.94518   0.0609820
0.94589   0.0559630
0.94660   0.0527180
0.94731   0.0516040
0.94803   0.0529270
0.94874   0.0554700
0.94945   0.0571940
0.95016   0.0584470
0.95087   0.0597080
0.95158   0.0582850
0.95229   0.0521550
0.95300   0.0459750
0.95371   0.0423040
0.95443   0.0430420
0.95514   0.0479490
0.95585   0.0529160
0.95656   0.0557890
0.95727   0.0568550
0.95798   0.0547130
0.95869   0.0508940
0.95940   0.0450480
0.96012   0.0392760
0.96083   0.0370840
0.96154   0.0379720
0.96225   0.0418600
0.96296   0.0464980
0.96367   0.0506370
0.96438   0.0512310
0.96509   0.0484590
0.96580   0.0439970
0.96652   0.0384280
0.96723   0.0338430
0.96794   0.0319010
0.96865   0.0328990
0.96936   0.0355460
0.97007   0.0377950
0.97078   0.0396100
0.97149   0.0409180
0.97220   0.0412130
0.97292   0.0388860
0.97363   0.0356000
0.97434   0.0334170
0.97505   0.0323170
0.97576   0.0321460
0.97647   0.0324350
0.97718   0.0327270
0.97789   0.0330920
0.97860   0.0325850
0.97932   0.0327610
0.98003   0.0328530
0.98074   0.0313810
0.98145   0.0307670
0.98216   0.0300740
0.98287   0.0289070
0.98358   0.0279680
0.98429   0.0266300
0.98501   0.0260140
0.98572   0.0262910
0.98643   0.0260620
0.98714   0.0257060
0.98785   0.0250560
0.98856   0.0245630
0.98927   0.0242290
0.98998   0.0241200
0.99070   0.0244500
0.99141   0.0242730
0.99212   0.0234410
0.99283   0.0227190
0.99354   0.0215040
0.99425   0.0203010
0.99496   0.0196110
0.99567   0.0196940
0.99638   0.0193140
0.99710   0.0189920
0.99781   0.0188660
0.99852   0.0192660
0.99923   0.0195120
0.99994   0.0191010
1.00065   0.0185530
1.00136   0.0174410
1.00207   0.0168520
1.00278   0.0154740
1.00350   0.0140500
1.00421   0.0138170
1.00492   0.0131870
1.00563   0.0133110
1.00634   0.0132110
1.00705   0.0134620
1.00776   0.0133240
1.00847   0.0133100
1.00918   0.0133640
1.00990   0.0127050
