# New G.A.S. format
# filter of Spitzer MIPS 160 micron
# After the "START" signal, the file is bild as follow:
# File name
# nwave: number of wavelenght
# center wavelenght [micron]
# and for l=1 to nwave, lambda [micron] | transmission [without unit]
START
MIPS_160
133
160.0
100.0851    0.000447
100.4623    0.000407
100.8424    0.000539
101.2253    0.000548
101.6112    0.000596
102.0000    0.000724
102.3918    0.000766
102.7866    0.000715
103.1845    0.000749
103.5855    0.000822
103.9896    0.000786
104.3969    0.000966
104.8074    0.000738
105.2211    0.000932
105.6381    0.000796
106.0584    0.000904
106.4820    0.000901
106.9091    0.000796
107.3396    0.000932
107.7736    0.000803
108.2111    0.001061
108.6522    0.000917
109.0969    0.000876
109.5452    0.001011
109.9973    0.001242
110.4531    0.001216
110.9126    0.001384
111.3761    0.001442
111.8434    0.001477
112.3146    0.001518
112.7899    0.001489
113.2691    0.001809
113.7525    0.001818
114.2400    0.002179
114.7317    0.002368
115.2277    0.002766
115.7279    0.003654
116.2326    0.004252
116.7416    0.004801
117.2552    0.005423
117.7732    0.006242
118.2959    0.006441
118.8232    0.007551
119.3552    0.008640
119.8921    0.009407
120.4338    0.010152
120.9804    0.011818
121.5319    0.012936
122.0886    0.014813
122.6503    0.017405
123.2173    0.019464
123.7895    0.022674
124.3670    0.027942
124.9500    0.032541
125.5385    0.038157
126.1325    0.046326
126.7322    0.054633
127.3376    0.063607
127.9488    0.076605
128.5659    0.089646
129.1890    0.104491
129.8182    0.120442
130.4535    0.138864
131.0951    0.157503
131.7430    0.174370
132.3974    0.195749
133.0583    0.213323
133.7258    0.231259
134.4000    0.249969
135.0811    0.277311
135.7691    0.302112
136.4642    0.322865
137.1664    0.356199
137.8759    0.400423
138.5927    0.445000
139.3171    0.480237
140.0491    0.532226
140.7888    0.584999
141.5363    0.645116
142.2918    0.675774
143.0555    0.702498
143.8274    0.740454
144.6076    0.757151
145.3964    0.784353
146.1938    0.804320
147.0000    0.823684
147.8152    0.859012
148.6394    0.891054
149.4729    0.912081
150.3158    0.942213
151.1683    0.972094
152.0304    0.999749
152.9025    0.995700
153.7846    1.000000
154.6770    0.995063
155.5798    0.980701
156.4932    0.965544
157.4173    0.954258
158.3525    0.952607
159.2988    0.957048
160.2565    0.949385
161.2258    0.946953
162.2069    0.953500
163.2000    0.956026
164.2054    0.965031
165.2232    0.951826
166.2537    0.931234
167.2971    0.913580
168.3537    0.861504
169.4238    0.820430
170.5075    0.759877
171.6052    0.684708
172.7171    0.610668
173.8435    0.527646
174.9847    0.445906
176.1410    0.368825
177.3127    0.303600
178.5000    0.250196
179.7034    0.203229
180.9231    0.166020
182.1595    0.133721
183.4129    0.109056
184.6836    0.088747
185.9721    0.072986
187.2787    0.059304
188.6038    0.047743
189.9478    0.038585
191.3110    0.030634
192.6940    0.024630
194.0971    0.019406
196.0000    0.014935
197.4519    0.012065
199.9200    0.008501
