# New G.A.S. format
# filter of COBE 100 micron
# After the "START" signal, the file is bild as follow:
# File name
# nwave: number of wavelenght
# center wavelenght [micron]
# and for l=1 to nwave, lambda [micron] | transmission [without unit]
START 
COBE_100
95
100.0
65.0600     0.00000
65.5700     0.01000000
66.0800     0.01000000
66.6000     0.0300000
67.1200     0.0400000
67.6400     0.0600000
68.1700     0.0800000
68.7000     0.100000
69.2400     0.110000
69.7800     0.130000
70.3200     0.140000
70.8700     0.150000
71.4300     0.150000
71.9900     0.160000
72.5500     0.170000
73.1100     0.180000
73.6900     0.180000
74.2600     0.190000
74.8400     0.200000
75.4300     0.210000
76.0100     0.220000
76.6100     0.230000
77.2100     0.240000
77.8100     0.270000
78.4200     0.290000
79.0300     0.310000
79.6500     0.340000
80.2700     0.360000
80.9000     0.380000
81.5300     0.400000
82.1700     0.420000
82.8100     0.430000
83.4500     0.450000
84.1100     0.470000
84.7600     0.490000
85.4300     0.510000
86.0900     0.520000
86.7600     0.540000
87.4400     0.560000
88.1300     0.570000
88.8100     0.590000
89.5100     0.610000
90.2100     0.630000
90.9100     0.660000
91.6200     0.680000
92.3400     0.710000
93.0600     0.740000
93.7900     0.760000
94.5200     0.790000
95.2600     0.810000
96.0000     0.830000
96.7500     0.840000
97.5100     0.860000
98.2700     0.880000
99.0400     0.890000
99.8100     0.910000
100.590     0.950000
101.370     0.960000
102.170     0.970000
102.960     0.980000
103.770     0.990000
104.580     1.00000
105.400     1.00000
106.220     1.00000
107.050     1.00000
107.890     0.990000
108.730     0.990000
109.580     0.990000
110.430     0.980000
111.300     0.950000
112.170     0.880000
113.040     0.810000
113.920     0.720000
114.810     0.640000
115.710     0.540000
116.620     0.440000
117.530     0.350000
118.440     0.270000
119.370     0.200000
120.300     0.160000
121.240     0.120000
122.190     0.0900000
123.140     0.0700000
124.100     0.0600000
125.070     0.0500000
126.050     0.0400000
127.040     0.0300000
128.030     0.0300000
129.030     0.0200000
130.040     0.0200000
131.050     0.0200000
132.080     0.01000000
133.110     0.01000000
134.150     0.01000000
135.190     0.00000
