# New G.A.S. format
# filter of IRCS_H
# download from  "Filter Profile Service" (http://svo2.cab.inta-csic.es/theory/fps)
# Wavelenght table as been reduced by a factor 6
# After the "START" signal, the file is bild as follow:
# Filter name
# nwave: number of wavelenght
# center wavelenght [micron]
# and for l=1 to nwave, lambda [micron] | transmission [without unit]
START
IRCS_H
125
1.63180
0.00014   0.0040590
0.00014   0.0051270
0.00014   0.0071110
0.00015   0.0099800
0.00015   0.0148010
0.00015   0.0221410
0.00015   0.0336460
0.00015   0.0518350
0.00015   0.0790710
0.00015   0.1179360
0.00015   0.1689000
0.00015   0.2310950
0.00015   0.3036960
0.00015   0.3867950
0.00015   0.4780270
0.00015   0.5744020
0.00015   0.6716620
0.00015   0.7529610
0.00015   0.8130340
0.00015   0.8454280
0.00015   0.8571320
0.00015   0.8539120
0.00015   0.8504640
0.00015   0.8467860
0.00015   0.8510590
0.00015   0.8585970
0.00015   0.8689570
0.00015   0.8773960
0.00015   0.8858950
0.00015   0.8881380
0.00015   0.8874360
0.00015   0.8798060
0.00015   0.8757480
0.00015   0.8662260
0.00015   0.8627170
0.00015   0.8603360
0.00016   0.8605350
0.00016   0.8657990
0.00016   0.8730930
0.00016   0.8807830
0.00016   0.8866730
0.00016   0.8943940
0.00016   0.9002690
0.00016   0.8986050
0.00016   0.8960420
0.00016   0.8914340
0.00016   0.8846130
0.00016   0.8801880
0.00016   0.8769990
0.00016   0.8743130
0.00016   0.8746180
0.00016   0.8780980
0.00016   0.8803410
0.00016   0.8866580
0.00016   0.8926540
0.00016   0.8987270
0.00016   0.9010920
0.00016   0.8997040
0.00016   0.8977200
0.00016   0.8930970
0.00016   0.8821720
0.00016   0.8722070
0.00016   0.8598780
0.00016   0.8487550
0.00016   0.8371270
0.00016   0.8302460
0.00016   0.8223270
0.00016   0.8194890
0.00016   0.8192140
0.00016   0.8218690
0.00017   0.8271180
0.00017   0.8373110
0.00017   0.8435820
0.00017   0.8546900
0.00017   0.8621670
0.00017   0.8690800
0.00017   0.8750920
0.00017   0.8782040
0.00017   0.8786010
0.00017   0.8761600
0.00017   0.8740840
0.00017   0.8705600
0.00017   0.8672330
0.00017   0.8663480
0.00017   0.8646390
0.00017   0.8643800
0.00017   0.8666380
0.00017   0.8688350
0.00017   0.8692170
0.00017   0.8706820
0.00017   0.8667750
0.00017   0.8610380
0.00017   0.8551480
0.00017   0.8449250
0.00017   0.8299860
0.00017   0.8188930
0.00017   0.8075100
0.00017   0.7999110
0.00017   0.7924350
0.00017   0.7910310
0.00017   0.7913820
0.00017   0.7984310
0.00017   0.8047790
0.00018   0.8128360
0.00018   0.8186950
0.00018   0.8207850
0.00018   0.8162540
0.00018   0.8055880
0.00018   0.7782740
0.00018   0.7423550
0.00018   0.6932830
0.00018   0.6089320
0.00018   0.5011440
0.00018   0.3851470
0.00018   0.2740320
0.00018   0.1843260
0.00018   0.1230160
0.00018   0.0788110
0.00018   0.0513000
0.00018   0.0334470
0.00018   0.0221400
0.00018   0.0148310
0.00018   0.0101160
0.00018   0.0071560
0.00018   0.0049890
