# New G.A.S. format
# filter of Hershel SPIRE 350 micron (point source)
# download from  "Filter Profile Service" (http://svo2.cab.inta-csic.es/theory/fps)
# the number of effective wavelenght has beed reduced (1/2)
# After the "START" signal, the file is bild as follow:
# File name
# nwave: number of wavelenght
# center wavelenght [micron]
# and for l=1 to nwave, lambda [micron] | transmission [without unit]
START
SPIRE_PS_350
111
349.9
 0.1999E+03    0.1596E-04
 0.2255E+03    0.1320E-04
 0.2265E+03    0.1070E-04
 0.2370E+03    0.1183E-04
 0.2381E+03    0.1133E-04
 0.2392E+03    0.1195E-04
 0.2404E+03    0.1361E-04
 0.2415E+03    0.1813E-04
 0.2427E+03    0.1283E-04
 0.2438E+03    0.1457E-04
 0.2450E+03    0.1993E-04
 0.2461E+03    0.1338E-04
 0.2473E+03    0.2224E-04
 0.2486E+03    0.1642E-04
 0.2498E+03    0.2264E-04
 0.2510E+03    0.1608E-04
 0.2522E+03    0.2365E-04
 0.2535E+03    0.3359E-04
 0.2547E+03    0.4868E-04
 0.2560E+03    0.6285E-04
 0.2573E+03    0.8936E-04
 0.2586E+03    0.1160E-03
 0.2599E+03    0.1441E-03
 0.2612E+03    0.1922E-03
 0.2626E+03    0.2726E-03
 0.2639E+03    0.4021E-03
 0.2653E+03    0.6055E-03
 0.2667E+03    0.9098E-03
 0.2681E+03    0.1420E-02
 0.2695E+03    0.2170E-02
 0.2709E+03    0.3111E-02
 0.2724E+03    0.4117E-02
 0.2738E+03    0.5341E-02
 0.2753E+03    0.7102E-02
 0.2768E+03    0.9118E-02
 0.2783E+03    0.1157E-01
 0.2799E+03    0.1413E-01
 0.2814E+03    0.1711E-01
 0.2830E+03    0.2158E-01
 0.2845E+03    0.2818E-01
 0.2861E+03    0.4054E-01
 0.2877E+03    0.6278E-01
 0.2894E+03    0.9183E-01
 0.2910E+03    0.1266E+00
 0.2927E+03    0.1817E+00
 0.2944E+03    0.2856E+00
 0.2960E+03    0.4271E+00
 0.2978E+03    0.5487E+00
 0.2995E+03    0.6104E+00
 0.3013E+03    0.6582E+00
 0.3031E+03    0.6929E+00
 0.3049E+03    0.6910E+00
 0.3067E+03    0.6878E+00
 0.3085E+03    0.6866E+00
 0.3105E+03    0.7339E+00
 0.3123E+03    0.7494E+00
 0.3143E+03    0.7727E+00
 0.3163E+03    0.7545E+00
 0.3182E+03    0.7277E+00
 0.3202E+03    0.7320E+00
 0.3222E+03    0.8140E+00
 0.3243E+03    0.8780E+00
 0.3263E+03    0.8607E+00
 0.3284E+03    0.8265E+00
 0.3306E+03    0.8249E+00
 0.3327E+03    0.8536E+00
 0.3349E+03    0.8889E+00
 0.3370E+03    0.8935E+00
 0.3393E+03    0.8784E+00
 0.3415E+03    0.8783E+00
 0.3439E+03    0.9091E+00
 0.3463E+03    0.8988E+00
 0.3486E+03    0.8659E+00
 0.3510E+03    0.8510E+00
 0.3534E+03    0.9361E+00
 0.3559E+03    0.9910E+00
 0.3583E+03    0.9821E+00
 0.3609E+03    0.9072E+00
 0.3635E+03    0.8965E+00
 0.3660E+03    0.9213E+00
 0.3687E+03    0.9566E+00
 0.3713E+03    0.9805E+00
 0.3741E+03    0.9826E+00
 0.3768E+03    0.9571E+00
 0.3797E+03    0.9500E+00
 0.3826E+03    0.9462E+00
 0.3854E+03    0.9443E+00
 0.3883E+03    0.8976E+00
 0.3912E+03    0.8748E+00
 0.3943E+03    0.8506E+00
 0.3973E+03    0.7551E+00
 0.4005E+03    0.6126E+00
 0.4037E+03    0.4602E+00
 0.4068E+03    0.3384E+00
 0.4102E+03    0.2571E+00
 0.4134E+03    0.1828E+00
 0.4168E+03    0.7390E-01
 0.4202E+03    0.2031E-01
 0.4237E+03    0.9435E-02
 0.4272E+03    0.5096E-02
 0.4308E+03    0.3145E-02
 0.4346E+03    0.1969E-02
 0.4382E+03    0.1321E-02
 0.4421E+03    0.1043E-02
 0.4458E+03    0.7926E-03
 0.4498E+03    0.5794E-03
 0.4537E+03    0.4483E-03
 0.4579E+03    0.4054E-03
 0.4621E+03    0.3804E-03
 0.4662E+03    0.3397E-03
 0.4706E+03    0.2831E-03
